trials.label,trials.startVal,trials.stepSizes,trials.maxVal,trials.minVal,trials.thisIndex,trials.thisRepN,trials.thisN,trials.direction,trials.stepSize,trials.stepType,trials.intensity,ISI.started,grating.started,key_resp.started,grating.stopped,trials.response,key_resp.corr,participant,session,date,expName,psychopyVersion,frameRate
cont,0.05,"[0.01, 0.01, 0.005, 0.005]",1,0,0,1,0,start,0.01,db,0.05,0.3669391,12.8073099,12.8073099,13.1069202,1,1,460663,1,2022-09-08_17h39.33.440,experiment-1,2022.2.4,60.0024721
cont,0.05,"[0.01, 0.01, 0.005, 0.005]",1,0,0,2,1,down,0.01,db,0.049942468,0.0007204,32.1465383,32.1465383,32.4461801,1,1,460663,1,2022-09-08_17h39.33.440,experiment-1,2022.2.4,60.0024721
cont,0.05,"[0.01, 0.01, 0.005, 0.005]",1,0,0,3,2,down,0.01,db,0.049885003,0.0006797,34.6956354,34.6956354,34.9953347,1,1,460663,1,2022-09-08_17h39.33.440,experiment-1,2022.2.4,60.0024721
cont,0.05,"[0.01, 0.01, 0.005, 0.005]",1,0,0,4,3,down,0.01,db,0.049827604,0.0006404,37.0282884,37.0282884,37.3279288,1,1,460663,1,2022-09-08_17h39.33.440,experiment-1,2022.2.4,60.0024721
cont,0.05,"[0.01, 0.01, 0.005, 0.005]",1,0,0,5,4,down,0.01,db,0.049770271,0.0006353,39.3442037,39.3442037,39.6438788,1,1,460663,1,2022-09-08_17h39.33.440,experiment-1,2022.2.4,60.0024721
cont,0.05,"[0.01, 0.01, 0.005, 0.005]",1,0,0,6,5,down,0.01,db,0.049713004,0.0005833,41.6936436,41.6936436,41.9929611,1,1,460663,1,2022-09-08_17h39.33.440,experiment-1,2022.2.4,60.0024721
cont,0.05,"[0.01, 0.01, 0.005, 0.005]",1,0,0,7,6,down,0.01,db,0.049655802,0.0006291,44.0423211,44.0423211,44.3422334,1,1,460663,1,2022-09-08_17h39.33.440,experiment-1,2022.2.4,60.0024721
cont,0.05,"[0.01, 0.01, 0.005, 0.005]",1,0,0,8,7,down,0.01,db,0.049598667,0.000636,46.391616,46.391616,46.6912824,1,1,460663,1,2022-09-08_17h39.33.440,experiment-1,2022.2.4,60.0024721
cont,0.05,"[0.01, 0.01, 0.005, 0.005]",1,0,0,9,8,down,0.01,db,0.049541597,0.0006771,48.7577287,48.7577287,49.0572434,1,1,460663,1,2022-09-08_17h39.33.440,experiment-1,2022.2.4,60.0024721
cont,0.05,"[0.01, 0.01, 0.005, 0.005]",1,0,0,10,9,down,0.01,db,0.049484593,0.0006456,51.1732452,51.1732452,51.4731621,1,1,460663,1,2022-09-08_17h39.33.440,experiment-1,2022.2.4,60.0024721
cont,0.05,"[0.01, 0.01, 0.005, 0.005]",1,0,0,11,10,down,0.01,db,0.049427655,0.0003429,53.4726937,53.4726937,53.7723578,1,1,460663,1,2022-09-08_17h39.33.440,experiment-1,2022.2.4,60.0024721
cont,0.05,"[0.01, 0.01, 0.005, 0.005]",1,0,0,12,11,down,0.01,db,0.049370782,0.0006457,55.7717781,55.7717781,56.0716688,1,1,460663,1,2022-09-08_17h39.33.440,experiment-1,2022.2.4,60.0024721
cont,0.05,"[0.01, 0.01, 0.005, 0.005]",1,0,0,13,12,down,0.01,db,0.049313974,0.0006382,58.0710816,58.0710816,58.3708413,1,1,460663,1,2022-09-08_17h39.33.440,experiment-1,2022.2.4,60.0024721
cont,0.05,"[0.01, 0.01, 0.005, 0.005]",1,0,0,14,13,down,0.01,db,0.049257232,0.0006714,60.4368727,60.4368727,,1,1,460663,1,2022-09-08_17h39.33.440,experiment-1,2022.2.4,60.0024721
cont,0.05,"[0.01, 0.01, 0.005, 0.005]",1,0,0,15,14,down,0.01,db,0.049200555,0.0005942,62.7195415,62.7195415,,1,1,460663,1,2022-09-08_17h39.33.440,experiment-1,2022.2.4,60.0024721
cont,0.05,"[0.01, 0.01, 0.005, 0.005]",1,0,0,16,15,down,0.01,db,0.049143944,0.0006388,65.0020327,65.0020327,65.3017438,1,1,460663,1,2022-09-08_17h39.33.440,experiment-1,2022.2.4,60.0024721
cont,0.05,"[0.01, 0.01, 0.005, 0.005]",1,0,0,17,16,down,0.01,db,0.049087397,0.0006056,67.3347052,67.3347052,67.6344006,1,1,460663,1,2022-09-08_17h39.33.440,experiment-1,2022.2.4,60.0024721
cont,0.05,"[0.01, 0.01, 0.005, 0.005]",1,0,0,18,17,down,0.01,db,0.049030916,0.00068,69.7171917,69.7171917,70.0167382,1,1,460663,1,2022-09-08_17h39.33.440,experiment-1,2022.2.4,60.0024721
cont,0.05,"[0.01, 0.01, 0.005, 0.005]",1,0,0,19,18,down,0.01,db,0.048974499,0.0006033,72.0497197,72.0497197,72.3492467,1,1,460663,1,2022-09-08_17h39.33.440,experiment-1,2022.2.4,60.0024721
cont,0.05,"[0.01, 0.01, 0.005, 0.005]",1,0,0,20,19,down,0.01,db,0.048918148,0.0006733,74.382168,74.382168,74.6818419,1,1,460663,1,2022-09-08_17h39.33.440,experiment-1,2022.2.4,60.0024721
cont,0.05,"[0.01, 0.01, 0.005, 0.005]",1,0,0,21,20,down,0.01,db,0.048861861,0.0003754,76.7146162,76.7146162,77.0146553,1,1,460663,1,2022-09-08_17h39.33.440,experiment-1,2022.2.4,60.0024721
cont,0.05,"[0.01, 0.01, 0.005, 0.005]",1,0,0,22,21,down,0.01,db,0.048805639,0.0005028,79.0138853,79.0138853,79.3135388,1,1,460663,1,2022-09-08_17h39.33.440,experiment-1,2022.2.4,60.0024721
cont,0.05,"[0.01, 0.01, 0.005, 0.005]",1,0,0,23,22,down,0.01,db,0.048749482,0.0006361,81.3633437,81.3633437,81.6627552,1,1,460663,1,2022-09-08_17h39.33.440,experiment-1,2022.2.4,60.0024721
cont,0.05,"[0.01, 0.01, 0.005, 0.005]",1,0,0,24,23,down,0.01,db,0.048693389,0.0006377,83.6987341,83.6987341,84.0121114,1,1,460663,1,2022-09-08_17h39.33.440,experiment-1,2022.2.4,60.0024721
cont,0.05,"[0.01, 0.01, 0.005, 0.005]",1,0,0,25,24,down,0.01,db,0.048637361,0.0006404,86.0282662,86.0282662,,1,1,460663,1,2022-09-08_17h39.33.440,experiment-1,2022.2.4,60.0024721
cont,0.05,"[0.01, 0.01, 0.005, 0.005]",1,0,0,26,25,down,0.01,db,0.048581398,0.000632,88.3106796,88.3106796,88.6104023,1,1,460663,1,2022-09-08_17h39.33.440,experiment-1,2022.2.4,60.0024721
cont,0.05,"[0.01, 0.01, 0.005, 0.005]",1,0,0,27,26,down,0.01,db,0.048525498,0.0006518,90.660133,90.660133,,1,1,460663,1,2022-09-08_17h39.33.440,experiment-1,2022.2.4,60.0024721
cont,0.05,"[0.01, 0.01, 0.005, 0.005]",1,0,0,28,27,down,0.01,db,0.048469663,0.0006327,92.9425732,92.9425732,93.2421314,1,1,460663,1,2022-09-08_17h39.33.440,experiment-1,2022.2.4,60.0024721
cont,0.05,"[0.01, 0.01, 0.005, 0.005]",1,0,0,29,28,down,0.01,db,0.048413893,0.0006263,95.2586696,95.2586696,95.5580933,1,1,460663,1,2022-09-08_17h39.33.440,experiment-1,2022.2.4,60.0024721
cont,0.05,"[0.01, 0.01, 0.005, 0.005]",1,0,0,30,29,down,0.01,db,0.048358186,0.0006196,97.574455,97.574455,97.8740714,1,1,460663,1,2022-09-08_17h39.33.440,experiment-1,2022.2.4,60.0024721
cont,0.05,"[0.01, 0.01, 0.005, 0.005]",1,0,0,31,30,down,0.01,db,0.048302544,0.0006575,99.8901199,99.8901199,100.189911,1,1,460663,1,2022-09-08_17h39.33.440,experiment-1,2022.2.4,60.0024721
cont,0.05,"[0.01, 0.01, 0.005, 0.005]",1,0,0,32,31,down,0.01,db,0.048246966,0.0006781,102.2062626,102.2062626,102.5056054,1,1,460663,1,2022-09-08_17h39.33.440,experiment-1,2022.2.4,60.0024721
cont,0.05,"[0.01, 0.01, 0.005, 0.005]",1,0,0,33,32,down,0.01,db,0.048191451,0.0005622,104.5227167,104.5227167,104.8216605,1,1,460663,1,2022-09-08_17h39.33.440,experiment-1,2022.2.4,60.0024721
cont,0.05,"[0.01, 0.01, 0.005, 0.005]",1,0,0,34,33,down,0.01,db,0.048136001,0.0006533,106.8545808,106.8545808,107.1543726,1,1,460663,1,2022-09-08_17h39.33.440,experiment-1,2022.2.4,60.0024721
cont,0.05,"[0.01, 0.01, 0.005, 0.005]",1,0,0,35,34,down,0.01,db,0.048080614,0.0006501,109.2037084,109.2037084,,1,1,460663,1,2022-09-08_17h39.33.440,experiment-1,2022.2.4,60.0024721
cont,0.05,"[0.01, 0.01, 0.005, 0.005]",1,0,0,36,35,down,0.01,db,0.048025291,0.0006277,111.4863543,111.4863543,111.7859976,1,1,460663,1,2022-09-08_17h39.33.440,experiment-1,2022.2.4,60.0024721
cont,0.05,"[0.01, 0.01, 0.005, 0.005]",1,0,0,37,36,down,0.01,db,0.047970032,0.0006232,113.8021403,113.8021403,114.1018239,1,1,460663,1,2022-09-08_17h39.33.440,experiment-1,2022.2.4,60.0024721
cont,0.05,"[0.01, 0.01, 0.005, 0.005]",1,0,0,38,37,down,0.01,db,0.047914836,0.0006194,116.1181155,116.1181155,116.4175802,1,1,460663,1,2022-09-08_17h39.33.440,experiment-1,2022.2.4,60.0024721
cont,0.05,"[0.01, 0.01, 0.005, 0.005]",1,0,0,39,38,down,0.01,db,0.047859704,0.0006214,118.4339285,118.4339285,118.7336791,1,1,460663,1,2022-09-08_17h39.33.440,experiment-1,2022.2.4,60.0024721
cont,0.05,"[0.01, 0.01, 0.005, 0.005]",1,0,0,40,39,down,0.01,db,0.047804635,0.000645,120.8164366,120.8164366,121.1160349,1,1,460663,1,2022-09-08_17h39.33.440,experiment-1,2022.2.4,60.0024721
cont,0.05,"[0.01, 0.01, 0.005, 0.005]",1,0,0,41,40,down,0.01,db,0.047749629,0.0006689,123.1488876,123.1488876,123.448522,1,1,460663,1,2022-09-08_17h39.33.440,experiment-1,2022.2.4,60.0024721
cont,0.05,"[0.01, 0.01, 0.005, 0.005]",1,0,0,42,41,down,0.01,db,0.047694687,0.0006169,125.4816063,125.4816063,125.7811719,1,1,460663,1,2022-09-08_17h39.33.440,experiment-1,2022.2.4,60.0024721
cont,0.05,"[0.01, 0.01, 0.005, 0.005]",1,0,0,43,42,down,0.01,db,0.047639808,0.0006562,127.797354,127.797354,128.0970287,1,1,460663,1,2022-09-08_17h39.33.440,experiment-1,2022.2.4,60.0024721
cont,0.05,"[0.01, 0.01, 0.005, 0.005]",1,0,0,44,43,down,0.01,db,0.047584992,0.0006721,130.1466264,130.1466264,130.4466517,1,1,460663,1,2022-09-08_17h39.33.440,experiment-1,2022.2.4,60.0024721
cont,0.05,"[0.01, 0.01, 0.005, 0.005]",1,0,0,45,44,down,0.01,db,0.04753024,0.0006338,132.4791783,132.4791783,132.778728,1,1,460663,1,2022-09-08_17h39.33.440,experiment-1,2022.2.4,60.0024721
cont,0.05,"[0.01, 0.01, 0.005, 0.005]",1,0,0,46,45,down,0.01,db,0.04747555,0.0006473,134.7784227,134.7784227,135.0779931,1,1,460663,1,2022-09-08_17h39.33.440,experiment-1,2022.2.4,60.0024721
cont,0.05,"[0.01, 0.01, 0.005, 0.005]",1,0,0,47,46,down,0.01,db,0.047420923,0.0003838,137.1108614,137.1108614,137.4106158,1,1,460663,1,2022-09-08_17h39.33.440,experiment-1,2022.2.4,60.0024721
cont,0.05,"[0.01, 0.01, 0.005, 0.005]",1,0,0,48,47,down,0.01,db,0.047366359,0.0006518,139.4601616,139.4601616,,1,1,460663,1,2022-09-08_17h39.33.440,experiment-1,2022.2.4,60.0024721
cont,0.05,"[0.01, 0.01, 0.005, 0.005]",1,0,0,49,48,down,0.01,db,0.047311858,0.0006009,141.726014,141.726014,142.0256573,1,1,460663,1,2022-09-08_17h39.33.440,experiment-1,2022.2.4,60.0024721
cont,0.05,"[0.01, 0.01, 0.005, 0.005]",1,0,0,50,49,down,0.01,db,0.04725742,0.0006443,144.0587087,144.0587087,,0,0,460663,1,2022-09-08_17h39.33.440,experiment-1,2022.2.4,60.0024721
cont,0.05,"[0.01, 0.01, 0.005, 0.005]",1,0,0,51,50,up,0.01,db,0.047311858,0.0002772,146.2912499,146.2912499,146.5908345,1,1,460663,1,2022-09-08_17h39.33.440,experiment-1,2022.2.4,60.0024721
cont,0.05,"[0.01, 0.01, 0.005, 0.005]",1,0,0,52,51,up,0.01,db,0.047311858,0.0006657,148.6570259,148.6570259,148.9567885,1,1,460663,1,2022-09-08_17h39.33.440,experiment-1,2022.2.4,60.0024721
cont,0.05,"[0.01, 0.01, 0.005, 0.005]",1,0,0,53,52,up,0.01,db,0.047311858,0.0006563,151.0227643,151.0227643,151.3226939,1,1,460663,1,2022-09-08_17h39.33.440,experiment-1,2022.2.4,60.0024721
cont,0.05,"[0.01, 0.01, 0.005, 0.005]",1,0,0,54,53,down,0.005,db,0.047284631,0.0006464,153.3884988,153.3884988,153.6882527,1,1,460663,1,2022-09-08_17h39.33.440,experiment-1,2022.2.4,60.0024721
cont,0.05,"[0.01, 0.01, 0.005, 0.005]",1,0,0,55,54,down,0.005,db,0.047284631,0.0006215,155.7380276,155.7380276,156.0375984,1,1,460663,1,2022-09-08_17h39.33.440,experiment-1,2022.2.4,60.0024721
cont,0.05,"[0.01, 0.01, 0.005, 0.005]",1,0,0,56,55,down,0.005,db,0.047284631,0.0006362,158.0708126,158.0708126,158.3703661,1,1,460663,1,2022-09-08_17h39.33.440,experiment-1,2022.2.4,60.0024721
cont,0.05,"[0.01, 0.01, 0.005, 0.005]",1,0,0,57,56,down,0.005,db,0.04725742,0.0006303,160.3862912,160.3862912,160.6861605,1,1,460663,1,2022-09-08_17h39.33.440,experiment-1,2022.2.4,60.0024721
cont,0.05,"[0.01, 0.01, 0.005, 0.005]",1,0,0,58,57,down,0.005,db,0.04725742,0.0005991,162.6854737,162.6854737,162.9853167,1,1,460663,1,2022-09-08_17h39.33.440,experiment-1,2022.2.4,60.0024721
cont,0.05,"[0.01, 0.01, 0.005, 0.005]",1,0,0,59,58,down,0.005,db,0.04725742,0.0006136,165.0513784,165.0513784,165.3512074,1,1,460663,1,2022-09-08_17h39.33.440,experiment-1,2022.2.4,60.0024721
cont,0.05,"[0.01, 0.01, 0.005, 0.005]",1,0,0,60,59,down,0.005,db,0.047230224,0.0006404,167.4172814,167.4172814,167.7168654,1,1,460663,1,2022-09-08_17h39.33.440,experiment-1,2022.2.4,60.0024721
cont,0.05,"[0.01, 0.01, 0.005, 0.005]",1,0,0,61,60,down,0.005,db,0.047230224,0.000677,169.7832006,169.7832006,170.0828017,1,1,460663,1,2022-09-08_17h39.33.440,experiment-1,2022.2.4,60.0024721
cont,0.05,"[0.01, 0.01, 0.005, 0.005]",1,0,0,62,61,down,0.005,db,0.047230224,0.0006441,172.1157528,172.1157528,172.4153888,1,1,460663,1,2022-09-08_17h39.33.440,experiment-1,2022.2.4,60.0024721
cont,0.05,"[0.01, 0.01, 0.005, 0.005]",1,0,0,63,62,down,0.005,db,0.047203044,0.0006605,174.4649661,174.4649661,174.764715,1,1,460663,1,2022-09-08_17h39.33.440,experiment-1,2022.2.4,60.0024721
cont,0.05,"[0.01, 0.01, 0.005, 0.005]",1,0,0,64,63,down,0.005,db,0.047203044,0.0005348,176.8139303,176.8139303,177.1139286,1,1,460663,1,2022-09-08_17h39.33.440,experiment-1,2022.2.4,60.0024721
cont,0.05,"[0.01, 0.01, 0.005, 0.005]",1,0,0,65,64,down,0.005,db,0.047203044,0.0006439,179.1466193,179.1466193,179.4463058,1,1,460663,1,2022-09-08_17h39.33.440,experiment-1,2022.2.4,60.0024721
cont,0.05,"[0.01, 0.01, 0.005, 0.005]",1,0,0,66,65,down,0.005,db,0.047175879,0.0006375,181.4459031,181.4459031,181.7454573,1,1,460663,1,2022-09-08_17h39.33.440,experiment-1,2022.2.4,60.0024721
cont,0.05,"[0.01, 0.01, 0.005, 0.005]",1,0,0,67,66,down,0.005,db,0.047175879,0.0006355,183.7615789,183.7615789,184.0615797,1,1,460663,1,2022-09-08_17h39.33.440,experiment-1,2022.2.4,60.0024721
cont,0.05,"[0.01, 0.01, 0.005, 0.005]",1,0,0,68,67,down,0.005,db,0.047175879,0.0006379,186.0941264,186.0941264,186.393922,1,1,460663,1,2022-09-08_17h39.33.440,experiment-1,2022.2.4,60.0024721
cont,0.05,"[0.01, 0.01, 0.005, 0.005]",1,0,0,69,68,down,0.005,db,0.047148731,0.000635,188.4474401,188.4474401,,1,1,460663,1,2022-09-08_17h39.33.440,experiment-1,2022.2.4,60.0024721
cont,0.05,"[0.01, 0.01, 0.005, 0.005]",1,0,0,70,69,down,0.005,db,0.047148731,0.0005543,190.7425457,190.7425457,191.0424439,1,1,460663,1,2022-09-08_17h39.33.440,experiment-1,2022.2.4,60.0024721
cont,0.05,"[0.01, 0.01, 0.005, 0.005]",1,0,0,71,70,down,0.005,db,0.047148731,0.0005796,193.1086379,193.1086379,193.4084297,1,1,460663,1,2022-09-08_17h39.33.440,experiment-1,2022.2.4,60.0024721
cont,0.05,"[0.01, 0.01, 0.005, 0.005]",1,0,0,72,71,down,0.005,db,0.047121597,0.0006398,195.4577172,195.4577172,195.7574007,1,1,460663,1,2022-09-08_17h39.33.440,experiment-1,2022.2.4,60.0024721
cont,0.05,"[0.01, 0.01, 0.005, 0.005]",1,0,0,73,72,down,0.005,db,0.047121597,0.0006503,197.7902593,197.7902593,198.0899985,1,1,460663,1,2022-09-08_17h39.33.440,experiment-1,2022.2.4,60.0024721
cont,0.05,"[0.01, 0.01, 0.005, 0.005]",1,0,0,74,73,down,0.005,db,0.047121597,0.0006504,200.1227209,200.1227209,200.4226528,1,1,460663,1,2022-09-08_17h39.33.440,experiment-1,2022.2.4,60.0024721
cont,0.05,"[0.01, 0.01, 0.005, 0.005]",1,0,0,75,74,down,0.005,db,0.04709448,0.0006342,202.5053298,202.5053298,,1,1,460663,1,2022-09-08_17h39.33.440,experiment-1,2022.2.4,60.0024721
cont,0.05,"[0.01, 0.01, 0.005, 0.005]",1,0,0,76,75,down,0.005,db,0.04709448,0.0005994,204.7881133,204.7881133,205.0877751,1,1,460663,1,2022-09-08_17h39.33.440,experiment-1,2022.2.4,60.0024721
cont,0.05,"[0.01, 0.01, 0.005, 0.005]",1,0,0,77,76,down,0.005,db,0.04709448,0.0006217,207.1705316,207.1705316,207.4702536,1,1,460663,1,2022-09-08_17h39.33.440,experiment-1,2022.2.4,60.0024721
cont,0.05,"[0.01, 0.01, 0.005, 0.005]",1,0,0,78,77,down,0.005,db,0.047067378,0.0006347,209.5029845,209.5029845,209.8027352,1,1,460663,1,2022-09-08_17h39.33.440,experiment-1,2022.2.4,60.0024721
cont,0.05,"[0.01, 0.01, 0.005, 0.005]",1,0,0,79,78,down,0.005,db,0.047067378,0.0006413,211.8189886,211.8189886,212.1186532,1,1,460663,1,2022-09-08_17h39.33.440,experiment-1,2022.2.4,60.0024721
cont,0.05,"[0.01, 0.01, 0.005, 0.005]",1,0,0,80,79,down,0.005,db,0.047067378,0.0005459,214.1847361,214.1847361,214.4843027,1,1,460663,1,2022-09-08_17h39.33.440,experiment-1,2022.2.4,60.0024721
cont,0.05,"[0.01, 0.01, 0.005, 0.005]",1,0,0,81,80,down,0.005,db,0.047040292,0.0006594,216.5009555,216.5009555,216.8003143,1,1,460663,1,2022-09-08_17h39.33.440,experiment-1,2022.2.4,60.0024721
cont,0.05,"[0.01, 0.01, 0.005, 0.005]",1,0,0,82,81,down,0.005,db,0.047040292,0.0006484,218.8331233,218.8331233,219.1328366,1,1,460663,1,2022-09-08_17h39.33.440,experiment-1,2022.2.4,60.0024721
cont,0.05,"[0.01, 0.01, 0.005, 0.005]",1,0,0,83,82,down,0.005,db,0.047040292,0.0006331,221.29902,221.29902,221.5989278,1,1,460663,1,2022-09-08_17h39.33.440,experiment-1,2022.2.4,60.0024721
cont,0.05,"[0.01, 0.01, 0.005, 0.005]",1,0,0,84,83,down,0.005,db,0.047013221,0.0006545,223.6816083,223.6816083,223.9812902,1,1,460663,1,2022-09-08_17h39.33.440,experiment-1,2022.2.4,60.0024721
cont,0.05,"[0.01, 0.01, 0.005, 0.005]",1,0,0,85,84,down,0.005,db,0.047013221,0.0006423,225.9806893,225.9806893,226.2805501,1,1,460663,1,2022-09-08_17h39.33.440,experiment-1,2022.2.4,60.0024721
cont,0.05,"[0.01, 0.01, 0.005, 0.005]",1,0,0,86,85,down,0.005,db,0.047013221,0.0006628,228.3132281,228.3132281,228.6129021,1,1,460663,1,2022-09-08_17h39.33.440,experiment-1,2022.2.4,60.0024721
cont,0.05,"[0.01, 0.01, 0.005, 0.005]",1,0,0,87,86,down,0.005,db,0.046986166,0.0005617,230.6790063,230.6790063,230.9794783,1,1,460663,1,2022-09-08_17h39.33.440,experiment-1,2022.2.4,60.0024721
cont,0.05,"[0.01, 0.01, 0.005, 0.005]",1,0,0,88,87,down,0.005,db,0.046986166,0.0006296,233.011829,233.011829,233.3113671,1,1,460663,1,2022-09-08_17h39.33.440,experiment-1,2022.2.4,60.0024721
cont,0.05,"[0.01, 0.01, 0.005, 0.005]",1,0,0,89,88,down,0.005,db,0.046986166,0.0006531,235.3609215,235.3609215,235.6606412,1,1,460663,1,2022-09-08_17h39.33.440,experiment-1,2022.2.4,60.0024721
cont,0.05,"[0.01, 0.01, 0.005, 0.005]",1,0,0,90,89,down,0.005,db,0.046959126,0.0006671,237.7101826,237.7101826,238.0098088,1,1,460663,1,2022-09-08_17h39.33.440,experiment-1,2022.2.4,60.0024721
cont,0.05,"[0.01, 0.01, 0.005, 0.005]",1,0,0,91,90,down,0.005,db,0.046959126,0.0006624,240.026003,240.026003,240.3257341,1,1,460663,1,2022-09-08_17h39.33.440,experiment-1,2022.2.4,60.0024721
cont,0.05,"[0.01, 0.01, 0.005, 0.005]",1,0,0,92,91,down,0.005,db,0.046959126,0.0006016,242.3584784,242.3584784,242.6581882,1,1,460663,1,2022-09-08_17h39.33.440,experiment-1,2022.2.4,60.0024721
cont,0.05,"[0.01, 0.01, 0.005, 0.005]",1,0,0,93,92,down,0.005,db,0.046932102,0.0006353,244.7245087,244.7245087,245.0240018,1,1,460663,1,2022-09-08_17h39.33.440,experiment-1,2022.2.4,60.0024721
cont,0.05,"[0.01, 0.01, 0.005, 0.005]",1,0,0,94,93,down,0.005,db,0.046932102,0.0006298,247.0734841,247.0734841,247.3732503,1,1,460663,1,2022-09-08_17h39.33.440,experiment-1,2022.2.4,60.0024721
cont,0.05,"[0.01, 0.01, 0.005, 0.005]",1,0,0,95,94,down,0.005,db,0.046932102,0.0006394,249.4226617,249.4226617,249.7225027,1,1,460663,1,2022-09-08_17h39.33.440,experiment-1,2022.2.4,60.0024721
cont,0.05,"[0.01, 0.01, 0.005, 0.005]",1,0,0,96,95,down,0.005,db,0.046905093,0.0006483,251.7887639,251.7887639,252.0884503,1,1,460663,1,2022-09-08_17h39.33.440,experiment-1,2022.2.4,60.0024721
cont,0.05,"[0.01, 0.01, 0.005, 0.005]",1,0,0,97,96,down,0.005,db,0.046905093,0.0006417,254.1545464,254.1545464,254.4544319,1,1,460663,1,2022-09-08_17h39.33.440,experiment-1,2022.2.4,60.0024721
cont,0.05,"[0.01, 0.01, 0.005, 0.005]",1,0,0,98,97,down,0.005,db,0.046905093,0.0006238,256.5205012,256.5205012,256.8200828,1,1,460663,1,2022-09-08_17h39.33.440,experiment-1,2022.2.4,60.0024721
cont,0.05,"[0.01, 0.01, 0.005, 0.005]",1,0,0,99,98,down,0.005,db,0.0468781,0.000645,258.8530551,258.8530551,259.1525643,1,1,460663,1,2022-09-08_17h39.33.440,experiment-1,2022.2.4,60.0024721
cont,0.05,"[0.01, 0.01, 0.005, 0.005]",1,0,0,100,99,down,0.005,db,0.0468781,0.0006289,261.2188393,261.2188393,261.518613,1,1,460663,1,2022-09-08_17h39.33.440,experiment-1,2022.2.4,60.0024721
cont,0.05,"[0.01, 0.01, 0.005, 0.005]",1,0,0,101,100,down,0.005,db,0.0468781,0.0006246,263.5679547,263.5679547,263.8676802,1,1,460663,1,2022-09-08_17h39.33.440,experiment-1,2022.2.4,60.0024721
cont,0.05,"[0.01, 0.01, 0.005, 0.005]",1,0,0,102,101,down,0.005,db,0.046851123,0.0006167,265.8839835,265.8839835,266.183635,1,1,460663,1,2022-09-08_17h39.33.440,experiment-1,2022.2.4,60.0024721
cont,0.05,"[0.01, 0.01, 0.005, 0.005]",1,0,0,103,102,down,0.005,db,0.046851123,0.0006499,268.2162738,268.2162738,268.5161935,1,1,460663,1,2022-09-08_17h39.33.440,experiment-1,2022.2.4,60.0024721
cont,0.05,"[0.01, 0.01, 0.005, 0.005]",1,0,0,104,103,down,0.005,db,0.046851123,0.0005889,270.5989908,270.5989908,270.8986025,1,1,460663,1,2022-09-08_17h39.33.440,experiment-1,2022.2.4,60.0024721
cont,0.05,"[0.01, 0.01, 0.005, 0.005]",1,0,0,105,104,down,0.005,db,0.046824161,0.0006848,272.9317167,272.9317167,273.2311924,1,1,460663,1,2022-09-08_17h39.33.440,experiment-1,2022.2.4,60.0024721
cont,0.05,"[0.01, 0.01, 0.005, 0.005]",1,0,0,106,105,down,0.005,db,0.046824161,0.0005449,275.2307311,275.2307311,275.530376,1,1,460663,1,2022-09-08_17h39.33.440,experiment-1,2022.2.4,60.0024721
cont,0.05,"[0.01, 0.01, 0.005, 0.005]",1,0,0,107,106,down,0.005,db,0.046824161,0.0006761,277.6964508,277.6964508,277.9962438,1,1,460663,1,2022-09-08_17h39.33.440,experiment-1,2022.2.4,60.0024721
cont,0.05,"[0.01, 0.01, 0.005, 0.005]",1,0,0,108,107,down,0.005,db,0.046797215,0.0006441,280.0623949,280.0623949,280.3623572,1,1,460663,1,2022-09-08_17h39.33.440,experiment-1,2022.2.4,60.0024721
cont,0.05,"[0.01, 0.01, 0.005, 0.005]",1,0,0,109,108,down,0.005,db,0.046797215,0.0006469,282.4114875,282.4114875,282.7113472,1,1,460663,1,2022-09-08_17h39.33.440,experiment-1,2022.2.4,60.0024721
cont,0.05,"[0.01, 0.01, 0.005, 0.005]",1,0,0,110,109,down,0.005,db,0.046797215,0.0006774,284.7609414,284.7609414,285.060426,1,1,460663,1,2022-09-08_17h39.33.440,experiment-1,2022.2.4,60.0024721
cont,0.05,"[0.01, 0.01, 0.005, 0.005]",1,0,0,111,110,down,0.005,db,0.046770284,0.0006356,287.1432641,287.1432641,287.443088,1,1,460663,1,2022-09-08_17h39.33.440,experiment-1,2022.2.4,60.0024721
cont,0.05,"[0.01, 0.01, 0.005, 0.005]",1,0,0,112,111,down,0.005,db,0.046770284,0.0006221,289.4592695,289.4592695,289.7588766,1,1,460663,1,2022-09-08_17h39.33.440,experiment-1,2022.2.4,60.0024721
cont,0.05,"[0.01, 0.01, 0.005, 0.005]",1,0,0,113,112,down,0.005,db,0.046770284,0.0006389,291.8083278,291.8083278,292.1081245,1,1,460663,1,2022-09-08_17h39.33.440,experiment-1,2022.2.4,60.0024721
cont,0.05,"[0.01, 0.01, 0.005, 0.005]",1,0,0,114,113,down,0.005,db,0.046743368,0.0006329,294.1742857,294.1742857,294.4739411,1,1,460663,1,2022-09-08_17h39.33.440,experiment-1,2022.2.4,60.0024721
cont,0.05,"[0.01, 0.01, 0.005, 0.005]",1,0,0,115,114,down,0.005,db,0.046743368,0.000637,296.5067882,296.5067882,296.806346,1,1,460663,1,2022-09-08_17h39.33.440,experiment-1,2022.2.4,60.0024721
cont,0.05,"[0.01, 0.01, 0.005, 0.005]",1,0,0,116,115,down,0.005,db,0.046743368,0.0006569,298.8225931,298.8225931,,1,1,460663,1,2022-09-08_17h39.33.440,experiment-1,2022.2.4,60.0024721
cont,0.05,"[0.01, 0.01, 0.005, 0.005]",1,0,0,117,116,down,0.005,db,0.046716468,0.0006119,301.105113,301.105113,301.4050587,1,1,460663,1,2022-09-08_17h39.33.440,experiment-1,2022.2.4,60.0024721
cont,0.05,"[0.01, 0.01, 0.005, 0.005]",1,0,0,118,117,down,0.005,db,0.046716468,0.0005829,303.4711544,303.4711544,303.7707681,1,1,460663,1,2022-09-08_17h39.33.440,experiment-1,2022.2.4,60.0024721
cont,0.05,"[0.01, 0.01, 0.005, 0.005]",1,0,0,119,118,down,0.005,db,0.046716468,0.0006267,305.8036231,305.8036231,306.1032094,1,1,460663,1,2022-09-08_17h39.33.440,experiment-1,2022.2.4,60.0024721
cont,0.05,"[0.01, 0.01, 0.005, 0.005]",1,0,0,120,119,down,0.005,db,0.046689584,0.0006468,308.1195105,308.1195105,308.4191236,1,1,460663,1,2022-09-08_17h39.33.440,experiment-1,2022.2.4,60.0024721
cont,0.05,"[0.01, 0.01, 0.005, 0.005]",1,0,0,121,120,down,0.005,db,0.046689584,0.0006382,310.4521433,310.4521433,310.7520729,1,1,460663,1,2022-09-08_17h39.33.440,experiment-1,2022.2.4,60.0024721
cont,0.05,"[0.01, 0.01, 0.005, 0.005]",1,0,0,122,121,down,0.005,db,0.046689584,0.0006376,312.8012101,312.8012101,313.1009009,1,1,460663,1,2022-09-08_17h39.33.440,experiment-1,2022.2.4,60.0024721
cont,0.05,"[0.01, 0.01, 0.005, 0.005]",1,0,0,123,122,down,0.005,db,0.046662715,0.0006307,315.200453,315.200453,315.4999464,1,1,460663,1,2022-09-08_17h39.33.440,experiment-1,2022.2.4,60.0024721
cont,0.05,"[0.01, 0.01, 0.005, 0.005]",1,0,0,124,123,down,0.005,db,0.046662715,0.0006283,317.5996359,317.5996359,317.8992266,1,1,460663,1,2022-09-08_17h39.33.440,experiment-1,2022.2.4,60.0024721
cont,0.05,"[0.01, 0.01, 0.005, 0.005]",1,0,0,125,124,down,0.005,db,0.046662715,0.0006398,319.9487117,319.9487117,320.2484616,1,1,460663,1,2022-09-08_17h39.33.440,experiment-1,2022.2.4,60.0024721
cont,0.05,"[0.01, 0.01, 0.005, 0.005]",1,0,0,126,125,down,0.005,db,0.046635862,0.0006501,322.4480907,322.4480907,322.7476241,1,1,460663,1,2022-09-08_17h39.33.440,experiment-1,2022.2.4,60.0024721
cont,0.05,"[0.01, 0.01, 0.005, 0.005]",1,0,0,127,126,down,0.005,db,0.046635862,0.0006496,324.781156,324.781156,325.0802988,1,1,460663,1,2022-09-08_17h39.33.440,experiment-1,2022.2.4,60.0024721
cont,0.05,"[0.01, 0.01, 0.005, 0.005]",1,0,0,128,127,down,0.005,db,0.046635862,0.0006296,327.0963622,327.0963622,327.3960507,1,1,460663,1,2022-09-08_17h39.33.440,experiment-1,2022.2.4,60.0024721
cont,0.05,"[0.01, 0.01, 0.005, 0.005]",1,0,0,129,128,down,0.005,db,0.046609024,0.0006651,329.4289421,329.4289421,329.728811,1,1,460663,1,2022-09-08_17h39.33.440,experiment-1,2022.2.4,60.0024721
cont,0.05,"[0.01, 0.01, 0.005, 0.005]",1,0,0,130,129,down,0.005,db,0.046609024,0.0006336,331.8280321,331.8280321,332.1279869,1,1,460663,1,2022-09-08_17h39.33.440,experiment-1,2022.2.4,60.0024721
cont,0.05,"[0.01, 0.01, 0.005, 0.005]",1,0,0,131,130,down,0.005,db,0.046609024,0.0006492,334.1940125,334.1940125,334.4936996,1,1,460663,1,2022-09-08_17h39.33.440,experiment-1,2022.2.4,60.0024721
cont,0.05,"[0.01, 0.01, 0.005, 0.005]",1,0,0,132,131,down,0.005,db,0.046582201,0.0006341,336.5266806,336.5266806,336.8262841,1,1,460663,1,2022-09-08_17h39.33.440,experiment-1,2022.2.4,60.0024721
cont,0.05,"[0.01, 0.01, 0.005, 0.005]",1,0,0,133,132,down,0.005,db,0.046582201,0.000654,338.8923869,338.8923869,339.1920956,1,1,460663,1,2022-09-08_17h39.33.440,experiment-1,2022.2.4,60.0024721
cont,0.05,"[0.01, 0.01, 0.005, 0.005]",1,0,0,134,133,down,0.005,db,0.046582201,0.0006599,341.2416028,341.2416028,341.5412355,1,1,460663,1,2022-09-08_17h39.33.440,experiment-1,2022.2.4,60.0024721
cont,0.05,"[0.01, 0.01, 0.005, 0.005]",1,0,0,135,134,down,0.005,db,0.046555394,0.0006244,343.6074325,343.6074325,,1,1,460663,1,2022-09-08_17h39.33.440,experiment-1,2022.2.4,60.0024721
cont,0.05,"[0.01, 0.01, 0.005, 0.005]",1,0,0,136,135,down,0.005,db,0.046555394,0.0006645,345.8733103,345.8733103,,1,1,460663,1,2022-09-08_17h39.33.440,experiment-1,2022.2.4,60.0024721
cont,0.05,"[0.01, 0.01, 0.005, 0.005]",1,0,0,137,136,down,0.005,db,0.046555394,0.0006477,348.0561589,348.0561589,348.3557115,1,1,460663,1,2022-09-08_17h39.33.440,experiment-1,2022.2.4,60.0024721
cont,0.05,"[0.01, 0.01, 0.005, 0.005]",1,0,0,138,137,down,0.005,db,0.046528602,0.0006511,350.4051885,350.4051885,,1,1,460663,1,2022-09-08_17h39.33.440,experiment-1,2022.2.4,60.0024721
cont,0.05,"[0.01, 0.01, 0.005, 0.005]",1,0,0,139,138,down,0.005,db,0.046528602,0.0006604,352.671158,352.671158,352.970713,1,1,460663,1,2022-09-08_17h39.33.440,experiment-1,2022.2.4,60.0024721
cont,0.05,"[0.01, 0.01, 0.005, 0.005]",1,0,0,140,139,down,0.005,db,0.046528602,0.0006362,355.036839,355.036839,355.3365708,1,1,460663,1,2022-09-08_17h39.33.440,experiment-1,2022.2.4,60.0024721
cont,0.05,"[0.01, 0.01, 0.005, 0.005]",1,0,0,141,140,down,0.005,db,0.046501826,0.0006397,357.4694047,357.4694047,,1,1,460663,1,2022-09-08_17h39.33.440,experiment-1,2022.2.4,60.0024721
cont,0.05,"[0.01, 0.01, 0.005, 0.005]",1,0,0,142,141,down,0.005,db,0.046501826,0.0006616,359.735374,359.735374,360.0350373,1,1,460663,1,2022-09-08_17h39.33.440,experiment-1,2022.2.4,60.0024721
cont,0.05,"[0.01, 0.01, 0.005, 0.005]",1,0,0,143,142,down,0.005,db,0.046501826,0.0006625,362.134447,362.134447,362.4343089,1,1,460663,1,2022-09-08_17h39.33.440,experiment-1,2022.2.4,60.0024721
cont,0.05,"[0.01, 0.01, 0.005, 0.005]",1,0,0,144,143,down,0.005,db,0.046475065,0.0005907,364.4671552,364.4671552,364.7667511,1,1,460663,1,2022-09-08_17h39.33.440,experiment-1,2022.2.4,60.0024721
cont,0.05,"[0.01, 0.01, 0.005, 0.005]",1,0,0,145,144,down,0.005,db,0.046475065,0.0006294,366.7662334,366.7662334,367.0660834,1,1,460663,1,2022-09-08_17h39.33.440,experiment-1,2022.2.4,60.0024721
cont,0.05,"[0.01, 0.01, 0.005, 0.005]",1,0,0,146,145,down,0.005,db,0.046475065,0.0006474,369.0654302,369.0654302,369.3651745,1,1,460663,1,2022-09-08_17h39.33.440,experiment-1,2022.2.4,60.0024721
cont,0.05,"[0.01, 0.01, 0.005, 0.005]",1,0,0,147,146,down,0.005,db,0.046448319,0.0006311,371.3813161,371.3813161,371.6811715,1,1,460663,1,2022-09-08_17h39.33.440,experiment-1,2022.2.4,60.0024721
cont,0.05,"[0.01, 0.01, 0.005, 0.005]",1,0,0,148,147,down,0.005,db,0.046448319,0.0006813,373.8137852,373.8137852,374.113609,1,1,460663,1,2022-09-08_17h39.33.440,experiment-1,2022.2.4,60.0024721
cont,0.05,"[0.01, 0.01, 0.005, 0.005]",1,0,0,149,148,down,0.005,db,0.046448319,0.0007802,376.1630199,376.1630199,376.4628348,1,1,460663,1,2022-09-08_17h39.33.440,experiment-1,2022.2.4,60.0024721
cont,0.05,"[0.01, 0.01, 0.005, 0.005]",1,0,0,150,149,down,0.005,db,0.046421589,0.0006765,378.4789776,378.4789776,378.7786173,1,1,460663,1,2022-09-08_17h39.33.440,experiment-1,2022.2.4,60.0024721
cont,0.05,"[0.01, 0.01, 0.005, 0.005]",1,0,0,151,150,down,0.005,db,0.046421589,0.0006207,380.844886,380.844886,381.1445255,1,1,460663,1,2022-09-08_17h39.33.440,experiment-1,2022.2.4,60.0024721
cont,0.05,"[0.01, 0.01, 0.005, 0.005]",1,0,0,152,151,down,0.005,db,0.046421589,0.0006452,383.1773426,383.1773426,383.4769869,1,1,460663,1,2022-09-08_17h39.33.440,experiment-1,2022.2.4,60.0024721
cont,0.05,"[0.01, 0.01, 0.005, 0.005]",1,0,0,153,152,down,0.005,db,0.046394875,0.0006166,385.5098381,385.5098381,385.809878,1,1,460663,1,2022-09-08_17h39.33.440,experiment-1,2022.2.4,60.0024721
cont,0.05,"[0.01, 0.01, 0.005, 0.005]",1,0,0,154,153,down,0.005,db,0.046394875,0.0006447,387.925927,387.925927,388.2256325,1,1,460663,1,2022-09-08_17h39.33.440,experiment-1,2022.2.4,60.0024721
cont,0.05,"[0.01, 0.01, 0.005, 0.005]",1,0,0,155,154,down,0.005,db,0.046394875,0.0006462,390.2917255,390.2917255,390.5915099,1,1,460663,1,2022-09-08_17h39.33.440,experiment-1,2022.2.4,60.0024721
cont,0.05,"[0.01, 0.01, 0.005, 0.005]",1,0,0,156,155,down,0.005,db,0.046368175,0.0006474,392.6407136,392.6407136,392.9405379,1,1,460663,1,2022-09-08_17h39.33.440,experiment-1,2022.2.4,60.0024721
cont,0.05,"[0.01, 0.01, 0.005, 0.005]",1,0,0,157,156,down,0.005,db,0.046368175,0.0006278,394.9570281,394.9570281,395.2565673,1,1,460663,1,2022-09-08_17h39.33.440,experiment-1,2022.2.4,60.0024721
cont,0.05,"[0.01, 0.01, 0.005, 0.005]",1,0,0,158,157,down,0.005,db,0.046368175,0.000644,397.3224918,397.3224918,397.6222312,1,1,460663,1,2022-09-08_17h39.33.440,experiment-1,2022.2.4,60.0024721
cont,0.05,"[0.01, 0.01, 0.005, 0.005]",1,0,0,159,158,down,0.005,db,0.046341491,0.0006415,399.7384914,399.7384914,,1,1,460663,1,2022-09-08_17h39.33.440,experiment-1,2022.2.4,60.0024721
cont,0.05,"[0.01, 0.01, 0.005, 0.005]",1,0,0,160,159,down,0.005,db,0.046341491,0.0006254,402.0210037,402.0210037,402.3206427,1,1,460663,1,2022-09-08_17h39.33.440,experiment-1,2022.2.4,60.0024721
cont,0.05,"[0.01, 0.01, 0.005, 0.005]",1,0,0,161,160,down,0.005,db,0.046341491,0.000361,404.3701836,404.3701836,,0,0,460663,1,2022-09-08_17h39.33.440,experiment-1,2022.2.4,60.0024721
cont,0.05,"[0.01, 0.01, 0.005, 0.005]",1,0,0,162,161,up,0.005,db,0.046368175,0.0006757,406.4361149,406.4361149,406.7358249,1,1,460663,1,2022-09-08_17h39.33.440,experiment-1,2022.2.4,60.0024721
cont,0.05,"[0.01, 0.01, 0.005, 0.005]",1,0,0,163,162,up,0.005,db,0.046368175,0.0006397,408.7520506,408.7520506,,0,0,460663,1,2022-09-08_17h39.33.440,experiment-1,2022.2.4,60.0024721
cont,0.05,"[0.01, 0.01, 0.005, 0.005]",1,0,0,164,163,up,0.005,db,0.046394875,0.000612,411.0179368,411.0179368,411.3176287,1,1,460663,1,2022-09-08_17h39.33.440,experiment-1,2022.2.4,60.0024721
cont,0.05,"[0.01, 0.01, 0.005, 0.005]",1,0,0,165,164,up,0.005,db,0.046394875,0.0006371,413.4337174,413.4337174,413.7333916,1,1,460663,1,2022-09-08_17h39.33.440,experiment-1,2022.2.4,60.0024721
cont,0.05,"[0.01, 0.01, 0.005, 0.005]",1,0,0,166,165,up,0.005,db,0.046394875,0.0004004,415.8494528,415.8494528,416.1493992,1,1,460663,1,2022-09-08_17h39.33.440,experiment-1,2022.2.4,60.0024721
